STUDYID,DOMAIN,USUBJID,RSSEQ,RSLNKGRP,RSTESTCD,RSTEST,RSCAT,RSORRES,RSSTRESC,RSSTAT,RSREASND,RSEVAL,VISITNUM,VISIT,RSDTC,RSDY
CDISCPILOT01,RS,01-701-1015,7,A2,OVRLRESP,Overall Response,IMWG,PD,PD,NA,NA,INVESTIGATOR,7,WEEK 6,2014-02-12,42
CDISCPILOT01,RS,01-701-1028,7,A2,OVRLRESP,Overall Response,IMWG,sCR,sCR,NA,NA,INVESTIGATOR,7,WEEK 6,2013-08,NA
CDISCPILOT01,RS,01-701-1028,16,A3,OVRLRESP,Overall Response,IMWG,sCR,sCR,NA,NA,INVESTIGATOR,9,WEEK 12,2013-10-09,84
CDISCPILOT01,RS,01-701-1028,21,A4,OVRLRESP,Overall Response,IMWG,CR,CR,NA,NA,INVESTIGATOR,10,WEEK 18,2013-11-20,126
CDISCPILOT01,RS,01-701-1034,7,A2,OVRLRESP,Overall Response,IMWG,CR,CR,NA,NA,INVESTIGATOR,7,WEEK 6,2014-08-11,42
CDISCPILOT01,RS,01-701-1034,16,A3,OVRLRESP,Overall Response,IMWG,CR,CR,NA,NA,INVESTIGATOR,9,WEEK 12,2014-09-25,84
CDISCPILOT01,RS,01-701-1034,26,NA,OVRLRESP,Overall Response,IMWG,sCR,sCR,NA,NA,INVESTIGATOR,10,WEEK 18,2014-11-04,126
CDISCPILOT01,RS,01-701-1097,7,A2,OVRLRESP,Overall Response,IMWG,PD,PD,NA,NA,INVESTIGATOR,7,WEEK 6,2014-02-11,42
CDISCPILOT01,RS,01-701-1115,7,A2,OVRLRESP,Overall Response,IMWG,PD,PD,NA,NA,INVESTIGATOR,7,WEEK 6,2013-01-10,42
CDISCPILOT01,RS,01-701-1118,7,A2,OVRLRESP,Overall Response,IMWG,sCR,sCR,NA,NA,INVESTIGATOR,7,WEEK 6,2014-04-23,42
CDISCPILOT01,RS,01-701-1118,16,A3,OVRLRESP,Overall Response,IMWG,VGPR,VGPR,NA,NA,INVESTIGATOR,9,WEEK 12,2014-06-05,84
CDISCPILOT01,RS,01-701-1118,26,NA,OVRLRESP,Overall Response,IMWG,CR,CR,NA,NA,INVESTIGATOR,10.1,WEEK 18,2014-07-16,126
CDISCPILOT01,RS,01-701-1118,34,A4,OVRLRESP,Overall Response,IMWG,VGPR,VGPR,NA,NA,INVESTIGATOR,12,WEEK 24,2014-08-27,168
CDISCPILOT01,RS,01-701-1130,7,A2,OVRLRESP,Overall Response,IMWG,VGPR,VGPR,NA,NA,INVESTIGATOR,7,WEEK 6,2014-03-29,42
CDISCPILOT01,RS,01-701-1130,16,A3,OVRLRESP,Overall Response,IMWG,sCR,sCR,NA,NA,INVESTIGATOR,9,WEEK 12,2014-05-16,84
CDISCPILOT01,RS,01-701-1130,26,NA,OVRLRESP,Overall Response,IMWG,VGPR,VGPR,NA,NA,INVESTIGATOR,10,WEEK 18,2014-06-21,126
CDISCPILOT01,RS,01-701-1130,34,A4,OVRLRESP,Overall Response,IMWG,VGPR,VGPR,NA,NA,INVESTIGATOR,12,WEEK 24,2014-08-02,168
CDISCPILOT01,RS,01-701-1133,7,A2,OVRLRESP,Overall Response,IMWG,sCR,sCR,NA,NA,INVESTIGATOR,7,WEEK 6,2012-12-11,42
CDISCPILOT01,RS,01-701-1133,16,A3,OVRLRESP,Overall Response,IMWG,PR,PR,NA,NA,INVESTIGATOR,9,WEEK 12,2013-01-22,84
CDISCPILOT01,RS,01-701-1133,26,NA,OVRLRESP,Overall Response,IMWG,CR,CR,NA,NA,INVESTIGATOR,10.1,WEEK 18,2013-03-04,126
CDISCPILOT01,RS,01-701-1133,34,A4,OVRLRESP,Overall Response,IMWG,PR,PR,NA,NA,INVESTIGATOR,12,WEEK 24,2013-04-18,168
CDISCPILOT01,RS,01-701-1146,7,A2,OVRLRESP,Overall Response,IMWG,PD,PD,NA,NA,INVESTIGATOR,7,WEEK 6,2013-06-30,42
CDISCPILOT01,RS,01-701-1148,7,A2,OVRLRESP,Overall Response,IMWG,VGPR,VGPR,NA,NA,INVESTIGATOR,7,WEEK 6,2013-10-03,42
CDISCPILOT01,RS,01-701-1148,16,A3,OVRLRESP,Overall Response,IMWG,PR,PR,NA,NA,INVESTIGATOR,9,WEEK 12,2013-11-17,84
CDISCPILOT01,RS,01-701-1148,26,NA,OVRLRESP,Overall Response,IMWG,PR,PR,NA,NA,INVESTIGATOR,10.1,WEEK 18,2013-12-27,126
CDISCPILOT01,RS,01-701-1148,36,A4,OVRLRESP,Overall Response,IMWG,PR,PR,NA,NA,INVESTIGATOR,12,WEEK 24,2014-02-08,168
CDISCPILOT01,RS,01-701-1153,7,A2,OVRLRESP,Overall Response,IMWG,sCR,sCR,NA,NA,INVESTIGATOR,7,WEEK 6,2013-11-04,42
CDISCPILOT01,RS,01-701-1153,16,A3,OVRLRESP,Overall Response,IMWG,MR,MR,NA,NA,INVESTIGATOR,9,WEEK 12,2013-12-16,84
CDISCPILOT01,RS,01-701-1153,26,NA,OVRLRESP,Overall Response,IMWG,sCR,sCR,NA,NA,INVESTIGATOR,9.2,UNSCHEDULED 9.2,2014-01-08,NA
CDISCPILOT01,RS,01-701-1153,35,NA,OVRLRESP,Overall Response,IMWG,SD,SD,NA,NA,INVESTIGATOR,9.3,UNSCHEDULED 9.3,2013-12-30,NA
CDISCPILOT01,RS,01-701-1153,43,A4,OVRLRESP,Overall Response,IMWG,MR,MR,NA,NA,INVESTIGATOR,12,WEEK 24,2014-03-11,168
CDISCPILOT01,RS,01-701-1203,7,A2,OVRLRESP,Overall Response,IMWG,CR,CR,NA,NA,INVESTIGATOR,7,WEEK 6,2013-03-16,42
CDISCPILOT01,RS,01-701-1203,16,A3,OVRLRESP,Overall Response,IMWG,MR,MR,NA,NA,INVESTIGATOR,9,WEEK 12,2013-05-09,84
CDISCPILOT01,RS,01-701-1203,26,NA,OVRLRESP,Overall Response,IMWG,CR,CR,NA,NA,INVESTIGATOR,10.1,WEEK 18,2013-06-08,126
CDISCPILOT01,RS,01-701-1203,34,A4,OVRLRESP,Overall Response,IMWG,SD,SD,NA,NA,INVESTIGATOR,12,WEEK 24,2013-07-22,168
CDISCPILOT01,RS,01-701-1211,7,A2,OVRLRESP,Overall Response,IMWG,VGPR,VGPR,NA,NA,INVESTIGATOR,7,WEEK 6,2012-12-25,42
CDISCPILOT01,RS,01-701-1211,16,A3,OVRLRESP,Overall Response,IMWG,MR,MR,NA,NA,INVESTIGATOR,9,WEEK 12,2013-01-14,84
CDISCPILOT01,RS,01-701-1239,7,A2,OVRLRESP,Overall Response,IMWG,PR,PR,NA,NA,INVESTIGATOR,7,WEEK 6,2014-02-19,42
CDISCPILOT01,RS,01-701-1239,16,A3,OVRLRESP,Overall Response,IMWG,MR,MR,NA,NA,INVESTIGATOR,9,WEEK 12,2014-04-02,84
CDISCPILOT01,RS,01-701-1239,26,NA,OVRLRESP,Overall Response,IMWG,MR,MR,NA,NA,INVESTIGATOR,10.1,WEEK 18,2014-05-14,126
CDISCPILOT01,RS,01-701-1239,34,A4,OVRLRESP,Overall Response,IMWG,VGPR,VGPR,NA,NA,INVESTIGATOR,12,WEEK 24,2014-06-27,168
CDISCPILOT01,RS,01-701-1275,7,A2,OVRLRESP,Overall Response,IMWG,MR,MR,NA,NA,INVESTIGATOR,7,WEEK 6,2014-03-22,42
CDISCPILOT01,RS,01-701-1275,16,A3,OVRLRESP,Overall Response,IMWG,PR,PR,NA,NA,INVESTIGATOR,9,WEEK 12,2014-05-03,84
CDISCPILOT01,RS,01-701-1287,7,A2,OVRLRESP,Overall Response,IMWG,PR,PR,NA,NA,INVESTIGATOR,7,WEEK 6,2014-03-06,42
CDISCPILOT01,RS,01-701-1287,16,A3,OVRLRESP,Overall Response,IMWG,PR,PR,NA,NA,INVESTIGATOR,9,WEEK 12,2014-04-17,84
CDISCPILOT01,RS,01-701-1287,26,NA,OVRLRESP,Overall Response,IMWG,PD,PD,NA,NA,INVESTIGATOR,10.1,WEEK 18,2014-05-29,126
CDISCPILOT01,RS,01-701-1287,36,A4,OVRLRESP,Overall Response,IMWG,PD,PD,NA,NA,INVESTIGATOR,12,WEEK 24,2014-07-12,168
CDISCPILOT01,RS,01-701-1294,7,A2,OVRLRESP,Overall Response,IMWG,PR,PR,NA,NA,INVESTIGATOR,7,WEEK 6,2013-05-08,42
CDISCPILOT01,RS,01-701-1294,16,A3,OVRLRESP,Overall Response,IMWG,SD,SD,NA,NA,INVESTIGATOR,9,WEEK 12,2013-06-14,84
CDISCPILOT01,RS,01-701-1302,7,A2,OVRLRESP,Overall Response,IMWG,PD,PD,NA,NA,INVESTIGATOR,7,WEEK 6,2013-10-08,42
CDISCPILOT01,RS,01-701-1302,16,A3,OVRLRESP,Overall Response,IMWG,CR,CR,NA,NA,INVESTIGATOR,9,WEEK 12,2013-11-05,84
CDISCPILOT01,RS,01-701-1345,7,A2,OVRLRESP,Overall Response,IMWG,MR,MR,NA,NA,INVESTIGATOR,7,WEEK 6,2013-11-19,42
CDISCPILOT01,RS,01-701-1345,16,A3,OVRLRESP,Overall Response,IMWG,MR,MR,NA,NA,INVESTIGATOR,9,WEEK 12,2013-12-31,84
CDISCPILOT01,RS,01-701-1345,26,NA,OVRLRESP,Overall Response,IMWG,PD,PD,NA,NA,INVESTIGATOR,10.1,WEEK 18,2014-02-11,126
CDISCPILOT01,RS,01-701-1345,34,A4,OVRLRESP,Overall Response,IMWG,PR,PR,NA,NA,INVESTIGATOR,12,WEEK 24,2014-03-18,168
CDISCPILOT01,RS,01-701-1363,7,A2,OVRLRESP,Overall Response,IMWG,NE,NE,NA,NA,INVESTIGATOR,7,WEEK 6,2013-07-10,42
CDISCPILOT01,RS,01-701-1363,16,A3,OVRLRESP,Overall Response,IMWG,CR,CR,NA,NA,INVESTIGATOR,9,WEEK 12,2013-08-21,84
CDISCPILOT01,RS,01-701-1415,7,A2,OVRLRESP,Overall Response,IMWG,PR,PR,NA,NA,INVESTIGATOR,7,WEEK 6,2013-11-04,42
CDISCPILOT01,RS,01-701-1415,16,A3,OVRLRESP,Overall Response,IMWG,NE,NE,NA,NA,INVESTIGATOR,9,WEEK 12,2013-12-21,84
CDISCPILOT01,RS,01-701-1415,26,NA,OVRLRESP,Overall Response,IMWG,MR,MR,NA,NA,INVESTIGATOR,10.1,WEEK 18,2014-01-27,126
CDISCPILOT01,RS,01-701-1415,34,A4,OVRLRESP,Overall Response,IMWG,MR,MR,NA,NA,INVESTIGATOR,12,WEEK 24,2014-03-10,168
CDISCPILOT01,RS,01-702-1082,7,A2,OVRLRESP,Overall Response,IMWG,PD,PD,NA,NA,INVESTIGATOR,7,WEEK 6,2013-09-06,42
CDISCPILOT01,RS,01-702-1082,16,A3,OVRLRESP,Overall Response,IMWG,CR,CR,NA,NA,INVESTIGATOR,9,WEEK 12,2013-11-17,84
CDISCPILOT01,RS,01-703-1076,7,A2,OVRLRESP,Overall Response,IMWG,PR,PR,NA,NA,INVESTIGATOR,7,WEEK 6,2013-12-04,42
CDISCPILOT01,RS,01-703-1076,16,A3,OVRLRESP,Overall Response,IMWG,NE,NE,NA,NA,INVESTIGATOR,9,WEEK 12,2013-12-24,84
